Folder: ConcreteMix-AI

File: dataset.csv
Cement (kg),Water (kg),Aggregate (kg),Admixture (kg),Compressive Strength (MPa)
343.635,144.135,701.361,2.07886,60.183
432.998,183.251,706.206,1.81435,56.1762
289.005,198.087,672.382,4.21425,40.356
264.521,181.304,723.8,8.17444,57.6498
400.279,203.615,902.05,2.59423,56.9909
255.146,175.118,623.587,5.90295,48.4912
458.111,142.028,976.74,6.24149,74.0933
295.456,206.878,1124.15,5.52047,67.2181
326.061,172.716,636.647,2.94466,58.1921
357.986,152.515,1083.72,7.63606,68.329
402.963,183.938,710.713,8.68468,69.5622
323.036,192.816,822.283,8.94552,64.0162
364.017,216.389,970.953,4.25214,56.9574
299.918,184.348,877.521,2.68677,52.0628
398.104,173.568,622.01,6.33478,64.1755
401.886,168.478,1028.01,1.39356,68.241
266.263,141.151,907.006,9.84402,69.6806
491.408,143.68,664.303,1.71679,66.3021
326.153,208.437,919.57,0.183907,49.6997
421.058,177.934,761.546,1.17751,55.0286
280.51,179.329,612.043,2.74055,42.7261
258.597,153.856,726.869,6.5142,53.6419
314.695,171.88,671.857,2.06421,51.3628
327.928,190.807,956.155,1.36886,52.4439
386.678,169.969,1073.5,8.7389,77.5907
492.396,180.251,652.152,6.00517,63.8825
484.875,192.695,952.105,1.75371,74.8523
399.475,145.645,858.996,4.18771,61.9756
272.123,142.121,770.266,5.18918,53.5746
261.307,215.218,987.55,1.66283,55.8389
347.169,171.054,813.658,0.827987,51.1251
457.184,176.66,963.465,2.45349,71.7383
320.234,215.317,661.069,2.88694,45.6276
285.231,216.895,747.575,7.19046,49.4784
268.638,155.663,711.94,5.66405,60.7553
443.061,148.062,704.024,6.63671,68.4413
251.381,147.555,648.14,7.32572,58.8527
426.714,145.695,846.238,0.311831,61.6956
442.818,207.59,667.223,5.95078,69.3116
339.616,205.157,1181.68,4.96366,73.5575
465.776,149.453,1090.24,3.34244,80.0
332.725,190.315,702.533,1.06598,53.5516
327.746,198.806,1157.63,7.28189,80.0
432.402,162.563,942.968,6.88402,80.0
471.803,200.049,1061.7,2.46402,70.6997
279.899,219.24,794.208,7.99416,55.2406
440.196,169.761,904.566,2.72145,70.7256
442.742,167.264,668.902,3.60974,63.0757
380.683,208.673,773.178,9.17314,77.814
256.355,200.07,692.618,9.50237,55.6053
257.857,148.25,919.554,1.85133,52.7301
328.589,180.42,801.963,8.72946,64.0688
476.892,165.604,638.025,8.06561,76.6771
352.596,171.136,793.412,6.92277,61.9347
307.2,212.431,752.784,2.49668,41.5465
322.438,165.545,1056.14,2.21209,61.1971
482.424,216.049,882.946,9.44059,80.0
408.351,190.547,809.321,7.05575,75.0923
450.918,163.457,1098.37,1.80575,72.6185
473.14,193.801,674.578,9.15488,79.4326
451.86,203.326,1163,6.9742,80.0
329.501,147.296,639.898,9.24396,60.1423
306.984,144.605,944.684,9.44266,73.1641
454.504,175.322,683.863,8.62043,71.6895
251.738,168.073,720.976,3.191,44.6537
354.353,151.439,698.559,0.370076,52.2782
279.966,189.457,999.118,2.30009,56.956
485.727,146.729,815.298,0.769532,72.9782
379.698,145.821,835.467,3.39875,60.728
340.907,196.499,863.481,0.653563,45.0039
490.612,146.787,877.608,5.39491,76.5014
374.312,169.942,1048.57,3.18753,66.5315
321.21,205.024,739.328,8.85978,62.1533
402.391,218.88,830.335,2.32959,63.8457
262.87,170.101,1143.88,8.70099,61.7175
477.066,202.172,670.139,8.74702,80.0
286.224,173.938,976.625,9.39068,66.2623
496.413,148.896,683.563,9.97934,80.0
418.034,140.908,972.044,7.67188,80.0
309.409,144.504,1136.34,4.79876,72.5547
341.946,149.402,691.005,8.73677,63.633
408.382,199.684,749.093,7.68273,68.3343
272.572,216.974,620.119,4.21357,47.0774
330.195,162.857,1057.48,2.38777,65.0397
260.194,157.888,805.249,3.54622,49.7681
419.391,140.972,666.379,2.96308,65.3897
378.023,143.453,676.493,0.420932,56.7564
411.293,182.216,1078.38,9.87722,80.0
422.734,145.904,737.551,3.84327,70.3322
484.182,217.544,1032.02,2.18254,75.9306
335.267,190.352,1016.37,7.86345,67.1082
481.173,176.363,751.079,4.17581,69.2298
314.485,186.745,708.959,9.44732,66.625
454.306,143.636,950.035,6.13411,79.7701
382.413,216.033,877.203,9.91169,80.0
273.276,176.453,692.011,9.42732,59.1254
475.105,162.19,903.533,6.07737,80.0
334.757,177.096,610.866,2.3067,50.754
431.489,186.692,1159.27,2.20486,80.0
471.772,217.952,1017.99,7.79584,80.0
410.508,195.853,1024.34,0.578427,62.8246
290.407,164.762,945.773,8.83786,68.4583
401.607,194.778,854.478,9.94908,80.0
275.368,212.874,1160.62,3.96242,58.4157
251.265,215.984,870.504,6.96021,60.3102
387.183,189.073,1190.9,8.15833,80.0
412.99,214.618,674.798,2.23818,53.8006
428.045,143.617,1121.94,5.9294,80.0
331.35,170.117,954.765,0.914868,54.2365
412.408,218.982,632.857,2.656,49.1081
414.403,187.53,1081.71,8.88748,80.0
273.419,217.593,800.1,8.62128,52.7508
316.301,207.066,922.437,6.55242,58.8599
493.253,173.186,807.808,0.869868,74.85
473.012,144.51,1042.5,3.72689,75.3637
448.703,205.032,734.763,7.2342,76.0388
394.226,219.731,684.514,0.810462,38.0954
298.811,201.519,899.021,6.83259,53.4931
320.193,207.972,1148.91,8.51207,78.2249
411.368,176.044,948.353,4.80587,77.3183
485.115,216.324,607.857,8.24681,75.3984
478.716,158.291,706.822,6.78016,78.5167
253.864,189.45,689.198,2.67028,42.4514
357.046,149.085,651.21,7.97426,59.9654
490.905,181.625,901.317,8.50582,75.5956
323.612,181.613,640.246,7.08363,51.7122
462.784,184.153,725.943,6.97471,73.698
292.373,210.132,723.084,6.18611,57.387
484.039,150.721,621.93,1.58605,57.7497
392.515,200.411,938.905,8.71844,69.9226
403.752,196.326,1065.32,8.25817,80.0
285.021,150.91,914.634,3.35119,55.6249
469.343,168.047,840.458,1.6076,63.9541
424.254,171.38,693.144,8.32134,63.3285
339.873,212.333,1117.07,0.0638587,56.9123
452.34,181.119,823.986,6.16927,74.3557
466.768,171.723,986.4,6.31814,80.0
377.836,208.989,615.232,6.34006,59.0827
449.574,151.766,1029.58,7.79845,80.0
425.492,179.369,616.258,7.61028,63.779
472.501,176.731,738.645,9.62992,72.8198
343.896,179.409,611.826,6.32622,50.207
394.57,190.672,1079.95,1.0251,60.78
366.4,146.069,991.648,6.87886,71.3689
321.635,150.244,659.665,3.00964,47.0931
257.625,151.106,1033.36,0.673506,46.3783
455.65,154.55,1098.13,3.45883,71.7611
281.765,211.743,1000.85,0.45742,51.6986
442.498,193.405,775.889,9.73489,76.3996
405.723,155.383,607.801,7.49652,66.2492
271.337,143.269,651.305,1.30086,41.3761